File: finalCode/baseStationCode/xRay/xrf_analysis/PC 98B Plastic Cllay Std Ref.csv
PC 98B Plastic Cllay Std Ref.csv
Energy (keV), counts, sigma, bkg
-0.032387, 0, 1.41421, 0
-0.00671532, 0, 1.41421, 0
0.0189563, 0, 1.41421, 0
0.044628, 0, 1.41421, 0
0.0702996, 0, 1.41421, 0
0.0959712, 0, 1.41421, 0
0.121643, 0, 1.41421, 0
0.147315, 0, 1.41421, 0
0.172986, 0, 1.41421, 0
0.198658, 0, 1.41421, 0
0.224329, 0, 1.41421, 0
0.250001, 0, 1.41421, 0
0.275673, 0, 1.41421, 0
0.301344, 0, 1.41421, 0
0.327016, 0, 1.41421, 0
0.352688, 0, 1.41421, 0
0.378359, 0, 1.41421, 0
0.404031, 0, 1.41421, 0
0.429703, 0, 1.41421, 0
0.455374, 0, 1.41421, 0
0.481046, 0, 1.41421, 0.000314125
0.506717, 5, 2.64575, 0.0012565
0.532389, 7, 3, 0.00278346
0.558061, 2, 2, 0.00496772
0.583732, 3, 2.23607, 0.00777458
0.609404, 2, 2, 0.0111231
0.635076, 1, 1.73205, 0.0147791
0.660747, 4, 2.44949, 0.0190203
0.686419, 2, 2, 0.0235616
0.71209, 4, 2.44949, 0.0288168
0.737762, 1, 1.73205, 0.0346085
0.763434, 4, 2.44949, 0.0405938
0.789105, 3, 2.23607, 0.0466135
0.814777, 2, 2, 0.0531595
0.840449, 3, 2.23607, 0.059581
0.86612, 2, 2, 0.0669103
0.891792, 0, 1.41421, 0.0746559
0.917464, 4, 2.44949, 0.0822
0.943135, 1, 1.73205, 0.0897413
0.968807, 1, 1.73205, 0.0977526
0.994479, 0, 1.41421, 0.105205
1.02015, 1, 1.73205, 0.113813
1.04582, 2, 2, 0.122758
1.07149, 2, 2, 0.131044
1.09716, 1, 1.73205, 0.139597
1.12284, 1, 1.73205, 0.148561
1.14851, 1, 1.73205, 0.156522
1.17418, 1, 1.73205, 0.165954
1.19985, 2, 2, 0.175674
1.22552, 2, 2, 0.184261
1.25119, 2, 2, 0.193648
1.27687, 2, 2, 0.203386
1.30254, 1, 1.73205, 0.211697
1.32821, 4, 2.44949, 0.221832
1.35388, 1, 1.73205, 0.232174
1.37955, 1, 1.73205, 0.241036
1.40522, 3, 2.23607, 0.251348
1.4309, 0, 1.41421, 0.261898
1.45657, 4, 2.44949, 0.270831
1.48224, 1, 1.73205, 0.281751
1.50791, 0, 1.41421, 0.292856
1.53358, 1, 1.73205, 0.302361
1.55925, 2, 2, 0.313861
1.58493, 1, 1.73205, 0.325543
1.6106, 4, 2.44949, 0.335627
1.63627, 1, 1.73205, 0.347697
1.66194, 1, 1.73205, 0.359981
1.68761, 0, 1.41421, 0.370629
1.71328, 1, 1.73205, 0.388247
1.73896, 1, 1.73205, 0.406115
1.76463, 1, 1.73205, 0.42312
1.7903, 1, 1.73205, 0.441757
1.81597, 0, 1.41421, 0.460577
1.84164, 3, 2.23607, 0.479086
1.86731, 1, 1.73205, 0.497986
1.89299, 1, 1.73205, 0.51663
1.91866, 1, 1.73205, 0.534009
1.94433, 0, 1.41421, 0.548482
1.97, 1, 1.73205, 0.561356
1.99567, 0, 1.41421, 0.57323
2.02134, 2, 2, 0.583627
2.04702, 2, 2, 0.594628
2.07269, 2, 2, 0.605752
2.09836, 2, 2, 0.61609
2.12403, 0, 1.41421, 0.62739
2.1497, 1, 1.73205, 0.638338
2.17537, 1, 1.73205, 0.648209
2.20105, 1, 1.73205, 0.659004
2.22672, 0, 1.41421, 0.669907
2.25239, 3, 2.23607, 0.679892
2.27806, 3, 2.23607, 0.690948
2.30373, 0, 1.41421, 0.701758
2.3294, 3, 2.23607, 0.711431
2.35508, 4, 2.44949, 0.722156
2.38075, 1, 1.73205, 0.732974
2.40642, 6, 2.82843, 0.742767
2.43209, 4, 2.44949, 0.753686
2.45776, 1, 1.73205, 0.764472
2.48343, 2, 2, 0.774309
2.5091, 1, 1.73205, 0.785073
2.53478, 3, 2.23607, 0.795832
2.56045, 1, 1.73205, 0.806028
2.58612, 2, 2, 0.816958
2.61179, 2, 2, 0.827937
2.63746, 2, 2, 0.838384
2.66313, 1, 1.73205, 0.849404
2.68881, 1, 1.73205, 0.859461
2.71448, 0, 1.41421, 0.869236
2.74015, 0, 1.41421, 0.881105
2.76582, 1, 1.73205, 0.903666
2.79149, 0, 1.41421, 0.934745
2.81716, 2, 2, 0.966053
2.84284, 0, 1.41421, 0.997021
2.86851, 2, 2, 1.02761
2.89418, 10, 3.4641, 1.05725
2.91985, 11, 3.60555, 1.08591
2.94552, 22, 4.89898, 1.11358
2.97119, 24, 5.09902, 1.14035
2.99687, 28, 5.47723, 1.16589
3.02254, 24, 5.09902, 1.19046
3.04821, 27, 5.38516, 1.21408
3.07388, 10, 3.4641, 1.23647
3.09955, 4, 2.44949, 1.25716
3.12522, 6, 2.82843, 1.27682
3.1509, 4, 2.44949, 1.29533
3.17657, 1, 1.73205, 1.31236
3.20224, 3, 2.23607, 1.32853
3.22791, 11, 3.60555, 1.34357
3.25358, 6, 2.82843, 1.35678
3.27925, 8, 3.16228, 1.3682
3.30493, 12, 3.74166, 1.37898
3.3306, 10, 3.4641, 1.38915
3.35627, 10, 3.4641, 1.39961
3.38194, 12, 3.74166, 1.40897
3.40761, 9, 3.31662, 1.4195
3.43328, 4, 2.44949, 1.42876
3.45896, 1, 1.73205, 1.43575
3.48463, 1, 1.73205, 1.44417
3.5103, 4, 2.44949, 1.45285
3.53597, 4, 2.44949, 1.45921
3.56164, 1, 1.73205, 1.46789
3.58731, 8, 3.16228, 1.47592
3.61299, 2, 2, 1.48108
3.63866, 6, 2.82843, 1.48862
3.66433, 6, 2.82843, 1.49615
3.69, 7, 3, 1.5013
3.71567, 8, 3.16228, 1.50882
3.74134, 8, 3.16228, 1.51624
3.76702, 7, 3, 1.52165
3.79269, 5, 2.64575, 1.52911
3.81836, 3, 2.23607, 1.53647
3.84403, 4, 2.44949, 1.54215
3.8697, 0, 1.41421, 1.5496
3.89537, 3, 2.23607, 1.57549
3.92105, 2, 2, 1.62027
3.94672, 2, 2, 1.66652
3.97239, 2, 2, 1.71328
3.99806, 3, 2.23607, 1.76027
4.02373, 4, 2.44949, 1.80792
4.0494, 5, 2.64575, 1.85464
4.07508, 4, 2.44949, 1.89996
4.10075, 1, 1.73205, 1.94442
4.12642, 1, 1.73205, 1.98749
4.15209, 2, 2, 2.02852
4.17776, 4, 2.44949, 2.06811
4.20343, 3, 2.23607, 2.10577
4.2291, 5, 2.64575, 2.14103
4.25478, 4, 2.44949, 2.17392
4.28045, 3, 2.23607, 2.20461
4.30612, 2, 2, 2.23263
4.33179, 5, 2.64575, 2.25837
4.35746, 6, 2.82843, 2.28176
4.38313, 4, 2.44949, 2.30344
4.40881, 4, 2.44949, 2.32295
4.43448, 6, 2.82843, 2.34051
4.46015, 6, 2.82843, 2.35613
4.48582, 8, 3.16228, 2.36884
4.51149, 12, 3.74166, 2.38076
4.53716, 10, 3.4641, 2.39052
4.56284, 6, 2.82843, 2.39812
4.58851, 7, 3, 2.40482
4.61418, 6, 2.82843, 2.41083
4.63985, 4, 2.44949, 2.41699
4.66552, 3, 2.23607, 2.42224
4.69119, 4, 2.44949, 2.42832
4.71687, 1, 1.73205, 2.43263
4.74254, 6, 2.82843, 2.43507
4.76821, 4, 2.44949, 2.43815
4.79388, 4, 2.44949, 2.44131
4.81955, 3, 2.23607, 2.44327
4.84522, 4, 2.44949, 2.4464
4.8709, 5, 2.64575, 2.44866
4.89657, 6, 2.82843, 2.44914
4.92224, 6, 2.82843, 2.45078
4.94791, 3, 2.23607, 2.45248
4.97358, 4, 2.44949, 2.45268
4.99925, 8, 3.16228, 2.45438
5.02493, 5, 2.64575, 2.45613
5.0506, 5, 2.64575, 2.45622
5.07627, 4, 2.44949, 2.45797
5.10194, 4, 2.44949, 2.45976
5.12761, 1, 1.73205, 2.45977
5.15328, 3, 2.23607, 2.46156
5.17896, 1, 1.73205, 2.5044
5.20463, 4, 2.44949, 2.58985
5.2303, 6, 2.82843, 2.67345
5.25597, 3, 2.23607, 2.75674
5.28164, 7, 3, 2.83904
5.30731, 5, 2.64575, 2.92048
5.33298, 6, 2.82843, 3.00101
5.35866, 3, 2.23607, 3.08036
5.38433, 5, 2.64575, 3.15827
5.41, 5, 2.64575, 3.23525
5.43567, 4, 2.44949, 3.31079
5.46134, 6, 2.82843, 3.38466
5.48702, 2, 2, 3.45709
5.51269, 8, 3.16228, 3.52788
5.53836, 8, 3.16228, 3.59586
5.56403, 8, 3.16228, 3.66031
5.5897, 3, 2.23607, 3.71455
5.61537, 9, 3.31662, 3.75995
5.64105, 4, 2.44949, 3.80085
5.66672, 7, 3, 3.83397
5.69239, 4, 2.44949, 3.85932
5.71806, 4, 2.44949, 3.88289
5.74373, 6, 2.82843, 3.90671
5.7694, 3, 2.23607, 3.92879
5.79507, 6, 2.82843, 3.95272
5.82075, 12, 3.74166, 3.97682
5.84642, 9, 3.31662, 3.99888
5.87209, 11, 3.60555, 4.0227
5.89776, 2, 2, 4.04663
5.92343, 7, 3, 4.0682
5.9491, 7, 3, 4.09216
5.97478, 5, 2.64575, 4.11602
6.00045, 8, 3.16228, 4.13811
6.02612, 5, 2.64575, 4.1621
6.05179, 5, 2.64575, 4.186
6.07746, 13, 3.87298, 4.20862
6.10313, 10, 3.4641, 4.23265
6.12881, 4, 2.44949, 4.25674
6.15448, 6, 2.82843, 4.27972
6.18015, 3, 2.23607, 4.37755
6.20582, 6, 2.82843, 4.47648
6.23149, 10, 3.4641, 4.57601
6.25716, 11, 3.60555, 4.67715
6.28284, 13, 3.87298, 4.77656
6.30851, 24, 5.09902, 4.872
6.33418, 35, 6.08276, 4.96564
6.35985, 54, 7.48331, 5.05334
6.38552, 69, 8.42615, 5.13587
6.41119, 52, 7.34847, 5.21444
6.43687, 45, 6.85565, 5.28908
6.46254, 44, 6.78233, 5.35616
6.48821, 40, 6.48074, 5.41712
6.51388, 14, 4, 5.47373
6.53955, 19, 4.58258, 5.52464
6.56522, 9, 3.31662, 5.56917
6.5909, 5, 2.64575, 5.6088
6.61657, 12, 3.74166, 5.64353
6.64224, 9, 3.31662, 5.67298
6.66791, 6, 2.82843, 5.70204
6.69358, 9, 3.31662, 5.72727
6.71925, 3, 2.23607, 5.82983
6.74493, 11, 3.60555, 5.93267
6.7706, 9, 3.31662, 6.03184
6.79627, 9, 3.31662, 6.13666
6.82194, 6, 2.82843, 6.24198
6.84761, 5, 2.64575, 6.34431
6.87328, 7, 3, 6.4476
6.89895, 9, 3.31662, 6.55174
6.92463, 9, 3.31662, 6.65286
6.9503, 12, 3.74166, 6.75847
6.97597, 17, 4.3589, 6.86416
7.00164, 15, 4.12311, 6.96875
7.02731, 11, 3.60555, 7.06827
7.05298, 17, 4.3589, 7.16888
7.07866, 23, 5, 7.26783
7.10433, 18, 4.47214, 7.36937
7.13, 14, 4, 7.46896
7.15567, 18, 4.47214, 7.56192
7.18134, 14, 4, 7.64718
7.20701, 9, 3.31662, 7.72423
7.23269, 12, 3.74166, 7.79396
7.25836, 10, 3.4641, 7.85821
7.28403, 11, 3.60555, 7.91528
7.3097, 7, 3, 7.9659
7.33537, 8, 3.16228, 8.01099
7.36104, 9, 3.31662, 8.05043
7.38672, 7, 3, 8.08678
7.41239, 7, 3, 8.11795
7.43806, 8, 3.16228, 8.14477
7.46373, 10, 3.4641, 8.17032
7.4894, 6, 2.82843, 8.19329
7.51507, 11, 3.60555, 8.21473
7.54075, 10, 3.4641, 8.229
7.56642, 10, 3.4641, 8.24072
7.59209, 8, 3.16228, 8.24949
7.61776, 11, 3.60555, 8.25862
7.64343, 12, 3.74166, 8.2646
7.6691, 10, 3.4641, 8.27223
7.69478, 16, 4.24264, 8.27113
7.72045, 10, 3.4641, 8.26456
7.74612, 15, 4.12311, 8.25772
7.77179, 24, 5.09902, 8.2512
7.79746, 22, 4.89898, 8.24059
7.82313, 42, 6.63325, 8.23366
7.84881, 36, 6.16441, 8.21877
7.87448, 28, 5.47723, 8.19604
7.90015, 45, 6.85565, 8.17584
7.92582, 47, 7, 8.15597
7.95149, 51, 7.28011, 8.13108
7.97716, 46, 6.9282, 8.11099
8.00284, 54, 7.48331, 8.08547
8.02851, 42, 6.63325, 8.05186
8.05418, 61, 7.93725, 8.02226
8.07985, 45, 6.85565, 7.99244
8.10552, 48, 7.07107, 7.95859
8.13119, 39, 6.40312, 7.92877
8.15687, 60, 7.87401, 7.89631
8.18254, 42, 6.63325, 7.85869
8.20821, 30, 5.65685, 7.82411
8.23388, 19, 4.58258, 7.7893
8.25955, 19, 4.58258, 7.7523
8.28522, 7, 3, 7.71765
8.31089, 11, 3.60555, 7.68276
8.33657, 13, 3.87298, 7.64664
8.36224, 8, 3.16228, 7.61192
8.38791, 11, 3.60555, 7.57697
8.41358, 6, 2.82843, 7.54171
8.43925, 4, 2.44949, 7.507
8.46492, 9, 3.31662, 7.47552
8.4906, 10, 3.4641, 7.67233
8.51627, 8, 3.16228, 7.87119
8.54194, 13, 3.87298, 8.06738
8.56761, 7, 3, 8.27137
8.59328, 11, 3.60555, 8.47571
8.61895, 12, 3.74166, 8.66628
8.64463, 12, 3.74166, 8.8455
8.6703, 13, 3.87298, 9.02399
8.69597, 17, 4.3589, 9.19154
8.72164, 15, 4.12311, 9.36674
8.74731, 14, 4, 9.5406
8.77298, 16, 4.24264, 9.69338
8.79866, 14, 4, 9.83131
8.82433, 11, 3.60555, 9.96592
8.85, 25, 5.19615, 10.085
8.87567, 17, 4.3589, 10.2119
8.90134, 21, 4.79583, 10.336
8.92701, 24, 5.09902, 10.4356
8.95269, 27, 5.38516, 10.5182
8.97836, 44, 6.78233, 10.595
9.00403, 33, 5.91608, 10.6565
9.0297, 39, 6.40312, 10.7241
9.05537, 37, 6.245, 10.7884
9.08104, 48, 7.07107, 10.8278
9.10672, 35, 6.08276, 10.8527
9.13239, 42, 6.63325, 10.8709
9.15806, 46, 6.9282, 10.8747
9.18373, 39, 6.40312, 10.8834
9.2094, 39, 6.40312, 10.8892
9.23507, 44, 6.78233, 10.8743
9.26075, 50, 7.2111, 10.847
9.28642, 50, 7.2111, 10.8142
9.31209, 54, 7.48331, 10.7696
9.33776, 54, 7.48331, 10.7293
9.36343, 51, 7.28011, 10.687
9.3891, 37, 6.245, 10.6313
9.41478, 32, 5.83095, 10.5652
9.44045, 39, 6.40312, 10.4964
9.46612, 29, 5.56776, 10.4191
9.49179, 25, 5.19615, 10.3458
9.51746, 31, 5.74456, 10.2715
9.54313, 27, 5.38516, 10.192
9.5688, 28, 5.47723, 10.1051
9.59448, 26, 5.2915, 10.018
9.62015, 16, 4.24264, 9.92677
9.64582, 26, 5.2915, 9.83849
9.67149, 17, 4.3589, 9.75024
9.69716, 20, 4.69042, 9.66086
9.72283, 13, 3.87298, 9.57341
9.74851, 9, 3.31662, 9.48227
9.77418, 19, 4.58258, 9.38434
9.79985, 14, 4, 9.28306
9.82552, 5, 2.64575, 9.17818
9.85119, 12, 3.74166, 9.07049
9.87687, 9, 3.31662, 8.96272
9.90254, 5, 2.64575, 8.85579
9.92821, 11, 3.60555, 8.74825
9.95388, 12, 3.74166, 8.78986
9.97955, 12, 3.74166, 8.83157
10.0052, 18, 4.47214, 8.87338
10.0309, 16, 4.24264, 8.90993
10.0566, 12, 3.74166, 8.93179
10.0822, 12, 3.74166, 8.9446
10.1079, 12, 3.74166, 8.94869
10.1336, 11, 3.60555, 8.93721
10.1593, 5, 2.64575, 8.97643
10.1849, 7, 3, 9.06824
10.2106, 12, 3.74166, 9.16005
10.2363, 11, 3.60555, 9.25022
10.2619, 8, 3.16228, 9.33862
10.2876, 12, 3.74166, 9.4233
10.3133, 14, 4, 9.49934
10.339, 14, 4, 9.57186
10.3646, 14, 4, 9.64239
10.3903, 19, 4.58258, 9.70846
10.416, 39, 6.40312, 9.77639
10.4416, 29, 5.56776, 9.84338
10.4673, 37, 6.245, 9.90159
10.493, 39, 6.40312, 9.95487
10.5187, 26, 5.2915, 10.006
10.5443, 51, 7.28011, 10.0518
10.57, 29, 5.56776, 10.0997
10.5957, 38, 6.32456, 10.1455
10.6213, 32, 5.83095, 10.1817
10.647, 30, 5.65685, 10.2135
10.6727, 16, 4.24264, 10.2421
10.6984, 25, 5.19615, 10.2649
10.724, 17, 4.3589, 10.2893
10.7497, 20, 4.69042, 10.3118
10.7754, 12, 3.74166, 10.3243
10.801, 19, 4.58258, 10.3325
10.8267, 14, 4, 10.3374
10.8524, 14, 4, 10.3363
10.8781, 14, 4, 10.337
10.9037, 19, 4.58258, 10.3366
10.9294, 18, 4.47214, 10.3272
10.9551, 14, 4, 10.312
10.9807, 16, 4.24264, 10.2948
11.0064, 20, 4.69042, 10.2717
11.0321, 14, 4, 10.2513
11.0578, 13, 3.87298, 10.2301
11.0834, 15, 4.12311, 10.2031
11.1091, 12, 3.74166, 10.1677
11.1348, 8, 3.16228, 10.1324
11.1604, 15, 4.12311, 10.0916
11.1861, 14, 4, 10.0545
11.2118, 12, 3.74166, 10.0169
11.2375, 15, 4.12311, 9.97646
11.2631, 12, 3.74166, 9.92715
11.2888, 8, 3.16228, 9.87941
11.3145, 7, 3, 9.82681
11.3401, 11, 3.60555, 9.7787
11.3658, 9, 3.31662, 9.73059
11.3915, 17, 4.3589, 9.67828
11.4172, 15, 4.12311, 9.6245
11.4428, 9, 3.31662, 9.57163
11.4685, 20, 4.69042, 9.51358
11.4942, 16, 4.24264, 9.46072
11.5198, 15, 4.12311, 9.40814
11.5455, 11, 3.60555, 9.3503
11.5712, 9, 3.31662, 9.298
11.5969, 14, 4, 9.24593
11.6225, 17, 4.3589, 9.18843
11.6482, 11, 3.60555, 9.13681
11.6739, 10, 3.4641, 9.08569
11.6996, 10, 3.4641, 9.02797
11.7252, 15, 4.12311, 9.06713
11.7509, 11, 3.60555, 9.10475
11.7766, 13, 3.87298, 9.13717
11.8022, 12, 3.74166, 9.16211
11.8279, 10, 3.4641, 9.18429
11.8536, 10, 3.4641, 9.20012
11.8793, 12, 3.74166, 9.21086
11.9049, 15, 4.12311, 9.20699
11.9306, 14, 4, 9.19279
11.9563, 15, 4.12311, 9.17125
11.9819, 10, 3.4641, 9.13878
12.0076, 7, 3, 9.09506
12.0333, 11, 3.60555, 9.04895
12.059, 8, 3.16228, 9.07046
12.0846, 3, 2.23607, 9.09167
12.1103, 16, 4.24264, 9.10888
12.136, 16, 4.24264, 9.13012
12.1616, 11, 3.60555, 9.15066
12.1873, 18, 4.47214, 9.169
12.213, 9, 3.31662, 9.18114
12.2387, 10, 3.4641, 9.19367
12.2643, 4, 2.44949, 9.20366
12.29, 10, 3.4641, 9.2116
12.3157, 7, 3, 9.20759
12.3413, 11, 3.60555, 9.19219
12.367, 11, 3.60555, 9.16257
12.3927, 7, 3, 9.1231
12.4184, 8, 3.16228, 9.0804
12.444, 14, 4, 9.03135
12.4697, 25, 5.19615, 8.98491
12.4954, 31, 5.74456, 8.93384
12.521, 21, 4.79583, 8.87695
12.5467, 24, 5.09902, 8.82281
12.5724, 27, 5.38516, 8.76914
12.5981, 27, 5.38516, 8.71138
12.6237, 27, 5.38516, 8.65789
12.6494, 29, 5.56776, 8.60121
12.6751, 21, 4.79583, 8.53845
12.7007, 15, 4.12311, 8.47978
12.7264, 12, 3.74166, 8.42153
12.7521, 16, 4.24264, 8.35842
12.7778, 12, 3.74166, 8.30051
12.8034, 17, 4.3589, 8.24116
12.8291, 14, 4, 8.17595
12.8548, 10, 3.4641, 8.11587
12.8804, 9, 3.31662, 8.05612
12.9061, 12, 3.74166, 7.99117
12.9318, 13, 3.87298, 7.93188
12.9575, 8, 3.16228, 7.87286
12.9831, 13, 3.87298, 7.8085
13.0088, 6, 2.82843, 7.74994
13.0345, 9, 3.31662, 7.69165
13.0601, 11, 3.60555, 7.62795
13.0858, 10, 3.4641, 7.57012
13.1115, 6, 2.82843, 7.52913
13.1372, 5, 2.64575, 7.50195
13.1628, 13, 3.87298, 7.47895
13.1885, 5, 2.64575, 7.45574
13.2142, 15, 4.12311, 7.42919
13.2399, 10, 3.4641, 7.40604
13.2655, 11, 3.60555, 7.3825
13.2912, 10, 3.4641, 7.35614
13.3169, 6, 2.82843, 7.33254
13.3425, 8, 3.16228, 7.30889
13.3682, 4, 2.44949, 7.28282
13.3939, 4, 2.44949, 7.25924
13.4196, 7, 3, 7.23545
13.4452, 10, 3.4641, 7.20923
13.4709, 7, 3, 7.18529
13.4966, 10, 3.4641, 7.16132
13.5222, 9, 3.31662, 7.13538
13.5479, 11, 3.60555, 7.11149
13.5736, 10, 3.4641, 7.08641
13.5993, 8, 3.16228, 7.05194
13.6249, 7, 3, 7.01223
13.6506, 7, 3, 6.97067
13.6763, 10, 3.4641, 6.92308
13.7019, 7, 3, 6.87193
13.7276, 5, 2.64575, 6.82175
13.7533, 12, 3.74166, 6.76836
13.779, 12, 3.74166, 6.71819
13.8046, 9, 3.31662, 6.6681
13.8303, 9, 3.31662, 6.61539
13.856, 7, 3, 6.56569
13.8816, 8, 3.16228, 6.51607
13.9073, 14, 4, 6.46416
13.933, 5, 2.64575, 6.41493
13.9587, 7, 3, 6.3659
13.9843, 7, 3, 6.31468
14.01, 9, 3.31662, 6.33197
14.0357, 10, 3.4641, 6.34921
14.0613, 7, 3, 6.36528
14.087, 8, 3.16228, 6.38257
14.1127, 9, 3.31662, 6.39954
14.1384, 5, 2.64575, 6.41471
14.164, 8, 3.16228, 6.4272
14.1897, 11, 3.60555, 6.43956
14.2154, 5, 2.64575, 6.45038
14.241, 8, 3.16228, 6.46211
14.2667, 12, 3.74166, 6.47345
14.2924, 7, 3, 6.4815
14.3181, 9, 3.31662, 6.48729
14.3437, 8, 3.16228, 6.49237
14.3694, 8, 3.16228, 6.49531
14.3951, 9, 3.31662, 6.49911
14.4207, 9, 3.31662, 6.50245
14.4464, 8, 3.16228, 6.50157
14.4721, 5, 2.64575, 6.49821
14.4978, 9, 3.31662, 6.49391
14.5234, 9, 3.31662, 6.4869
14.5491, 14, 4, 6.48095
14.5748, 8, 3.16228, 6.47457
14.6004, 15, 4.12311, 6.4637
14.6261, 13, 3.87298, 6.4494
14.6518, 10, 3.4641, 6.43431
14.6775, 12, 3.74166, 6.41613
14.7031, 7, 3, 6.39927
14.7288, 18, 4.47214, 6.38172
14.7545, 7, 3, 6.3593
14.7801, 4, 2.44949, 6.33354
14.8058, 6, 2.82843, 6.30324
14.8315, 7, 3, 6.26655
14.8572, 8, 3.16228, 6.22426
14.8828, 2, 2, 6.17671
14.9085, 7, 3, 6.12364
14.9342, 6, 2.82843, 6.06624
14.9598, 13, 3.87298, 6.00594
14.9855, 10, 3.4641, 5.94308
15.0112, 7, 3, 5.87782
15.0369, 10, 3.4641, 5.81068
15.0625, 7, 3, 5.74267
15.0882, 10, 3.4641, 5.67363
15.1139, 11, 3.60555, 5.60415
15.1396, 4, 2.44949, 5.53459
15.1652, 14, 4, 5.46428
15.1909, 5, 2.64575, 5.39356
15.2166, 3, 2.23607, 5.32343
15.2422, 14, 4, 5.25384
15.2679, 7, 3, 5.18401
15.2936, 8, 3.16228, 5.11531
15.3193, 7, 3, 5.04702
15.3449, 7, 3, 4.97862
15.3706, 6, 2.82843, 4.91125
15.3963, 12, 3.74166, 4.84429
15.4219, 9, 3.31662, 4.77738
15.4476, 4, 2.44949, 4.71137
15.4733, 9, 3.31662, 4.64834
15.499, 4, 2.44949, 4.58868
15.5246, 6, 2.82843, 4.5294
15.5503, 10, 3.4641, 4.47051
15.576, 7, 3, 4.412
15.6016, 9, 3.31662, 4.35388
15.6273, 12, 3.74166, 4.29453
15.653, 2, 2, 4.23294
15.6787, 16, 4.24264, 4.16903
15.7043, 6, 2.82843, 4.10296
15.73, 5, 2.64575, 4.03502
15.7557, 3, 2.23607, 3.96743
15.7813, 3, 2.23607, 3.89847
15.807, 5, 2.64575, 3.83141
15.8327, 4, 2.44949, 3.7979
15.8584, 5, 2.64575, 3.79005
15.884, 7, 3, 3.78669
15.9097, 10, 3.4641, 3.78306
15.9354, 4, 2.44949, 3.77575
15.961, 4, 2.44949, 3.77211
15.9867, 8, 3.16228, 3.76775
16.0124, 10, 3.4641, 3.75991
16.0381, 3, 2.23607, 3.755
16.0637, 2, 2, 3.74983
16.0894, 6, 2.82843, 3.74253
16.1151, 8, 3.16228, 3.73733
16.1407, 2, 2, 3.73122
16.1664, 6, 2.82843, 3.72283
16.1921, 5, 2.64575, 3.71589
16.2178, 3, 2.23607, 3.70872
16.2434, 2, 2, 3.70083
16.2691, 3, 2.23607, 3.6936
16.2948, 3, 2.23607, 3.68258
16.3204, 8, 3.16228, 3.66735
16.3461, 3, 2.23607, 3.65052
16.3718, 2, 2, 3.63136
16.3975, 4, 2.44949, 3.60839
16.4231, 3, 2.23607, 3.59437
16.4488, 6, 2.82843, 3.58032
16.4745, 6, 2.82843, 3.56506
16.5001, 5, 2.64575, 3.55107
16.5258, 4, 2.44949, 3.53698
16.5515, 7, 3, 3.52199
16.5772, 5, 2.64575, 3.5071
16.6028, 8, 3.16228, 3.49221
16.6285, 5, 2.64575, 3.47651
16.6542, 5, 2.64575, 3.46166
16.6798, 6, 2.82843, 3.44671
16.7055, 6, 2.82843, 3.43133
16.7312, 6, 2.82843, 3.41514
16.7569, 7, 3, 3.39902
16.7825, 5, 2.64575, 3.38248
16.8082, 9, 3.31662, 3.36639
16.8339, 13, 3.87298, 3.35017
16.8596, 7, 3, 3.33332
16.8852, 6, 2.82843, 3.31596
16.9109, 6, 2.82843, 3.29831
16.9366, 7, 3, 3.28011
16.9622, 3, 2.23607, 3.26157
16.9879, 6, 2.82843, 3.24209
17.0136, 5, 2.64575, 3.22188
17.0393, 6, 2.82843, 3.20086
17.0649, 1, 1.73205, 3.17927
17.0906, 5, 2.64575, 3.15685
17.1163, 3, 2.23607, 3.13382
17.1419, 4, 2.44949, 3.11018
17.1676, 3, 2.23607, 3.08608
17.1933, 4, 2.44949, 3.06134
17.219, 5, 2.64575, 3.03593
17.2446, 12, 3.74166, 3.01016
17.2703, 6, 2.82843, 2.98373
17.296, 4, 2.44949, 2.95679
17.3216, 2, 2, 2.92963
17.3473, 6, 2.82843, 2.90206
17.373, 2, 2, 2.87413
17.3987, 4, 2.44949, 2.85958
17.4243, 3, 2.23607, 2.84463
17.45, 6, 2.82843, 2.8287
17.4757, 7, 3, 2.81161
17.5013, 3, 2.23607, 2.79323
17.527, 4, 2.44949, 2.77316
17.5527, 3, 2.23607, 2.75173
17.5784, 1, 1.73205, 2.72949
17.604, 4, 2.44949, 2.70541
17.6297, 5, 2.64575, 2.67971
17.6554, 2, 2, 2.65338
17.681, 7, 3, 2.62634
17.7067, 6, 2.82843, 2.59855
17.7324, 6, 2.82843, 2.57093
17.7581, 7, 3, 2.54349
17.7837, 1, 1.73205, 2.51541
17.8094, 4, 2.44949, 2.48602
17.8351, 3, 2.23607, 2.45698
17.8607, 2, 2, 2.42715
17.8864, 2, 2, 2.39824
17.9121, 3, 2.23607, 2.36958
17.9378, 1, 1.73205, 2.34009
17.9634, 4, 2.44949, 2.30963
17.9891, 4, 2.44949, 2.2797
18.0148, 6, 2.82843, 2.24856
18.0404, 4, 2.44949, 2.21893
18.0661, 3, 2.23607, 2.18961
18.0918, 4, 2.44949, 2.15885
18.1175, 2, 2, 2.12828
18.1431, 2, 2, 2.09799
18.1688, 6, 2.82843, 2.06638
18.1945, 3, 2.23607, 2.03643
18.2201, 2, 2, 2.00633
18.2458, 4, 2.44949, 1.97586
18.2715, 1, 1.73205, 1.94092
18.2972, 4, 2.44949, 1.90406
18.3228, 3, 2.23607, 1.86591
18.3485, 2, 2, 1.82629
18.3742, 7, 3, 1.78738
18.3998, 2, 2, 1.7479
18.4255, 3, 2.23607, 1.70713
18.4512, 4, 2.44949, 1.66783
18.4769, 4, 2.44949, 1.62924
18.5025, 1, 1.73205, 1.58917
18.5282, 2, 2, 1.55144
18.5539, 4, 2.44949, 1.51353
18.5795, 5, 2.64575, 1.47359
18.6052, 3, 2.23607, 1.43617
18.6309, 4, 2.44949, 1.39936
18.6566, 1, 1.73205, 1.36059
18.6822, 3, 2.23607, 1.32476
18.7079, 2, 2, 1.28916
18.7336, 3, 2.23607, 1.25125
18.7593, 2, 2, 1.21647
18.7849, 5, 2.64575, 1.1823
18.8106, 1, 1.73205, 1.14568
18.8363, 2, 2, 1.11253
18.8619, 4, 2.44949, 1.08
18.8876, 1, 1.73205, 1.04476
18.9133, 3, 2.23607, 1.01324
18.939, 0, 1.41421, 0.982324
18.9646, 1, 1.73205, 0.948488
18.9903, 1, 1.73205, 0.918576
19.016, 0, 1.41421, 0.911144
19.0416, 1, 1.73205, 0.924305
19.0673, 1, 1.73205, 0.94002
19.093, 3, 2.23607, 0.955687
19.1187, 4, 2.44949, 0.969529
19.1443, 2, 2, 0.985402
19.17, 4, 2.44949, 1.00053
19.1957, 4, 2.44949, 1.01347
19.2213, 5, 2.64575, 1.02799
19.247, 3, 2.23607, 1.04242
19.2727, 3, 2.23607, 1.05598
19.2984, 3, 2.23607, 1.07055
19.324, 3, 2.23607, 1.08393
19.3497, 4, 2.44949, 1.09588
19.3754, 3, 2.23607, 1.10829
19.401, 0, 1.41421, 1.11861
19.4267, 3, 2.23607, 1.12627
19.4524, 6, 2.82843, 1.1303
19.4781, 3, 2.23607, 1.13106
19.5037, 3, 2.23607, 1.12858
19.5294, 4, 2.44949, 1.12293
19.5551, 2, 2, 1.11435
19.5807, 6, 2.82843, 1.10383
19.6064, 1, 1.73205, 1.09179
19.6321, 3, 2.23607, 1.07872
19.6578, 0, 1.41421, 1.06479
19.6834, 2, 2, 1.04993
19.7091, 3, 2.23607, 1.03497
19.7348, 0, 1.41421, 1.03
19.7604, 1, 1.73205, 1.02367
19.7861, 3, 2.23607, 1.01595
19.8118, 1, 1.73205, 1.00701
19.8375, 1, 1.73205, 0.996094
19.8631, 0, 1.41421, 0.983672
19.8888, 2, 2, 0.96853
19.9145, 1, 1.73205, 0.951246
19.9401, 2, 2, 0.932949
19.9658, 1, 1.73205, 0.912769
19.9915, 0, 1.41421, 0.889375
20.0172, 0, 1.41421, 0.864669
20.0428, 1, 1.73205, 0.839938
20.0685, 2, 2, 0.813821
20.0942, 1, 1.73205, 0.789018
20.1198, 2, 2, 0.76484
20.1455, 1, 1.73205, 0.739451
20.1712, 0, 1.41421, 0.716025
20.1969, 4, 2.44949, 0.693155
20.2225, 2, 2, 0.668643
20.2482, 2, 2, 0.646519
20.2739, 0, 1.41421, 0.624878
20.2995, 2, 2, 0.601399
20.3252, 0, 1.41421, 0.600743
20.3509, 1, 1.73205, 0.600001
20.3766, 3, 2.23607, 0.597163
20.4022, 2, 2, 0.596424
20.4279, 3, 2.23607, 0.595574
20.4536, 1, 1.73205, 0.592943
20.4792, 1, 1.73205, 0.591822
20.5049, 4, 2.44949, 0.59061
20.5306, 2, 2, 0.587865
20.5563, 1, 1.73205, 0.586657
20.5819, 2, 2, 0.585333
20.6076, 2, 2, 0.582809
20.6333, 2, 2, 0.581219
20.659, 3, 2.23607, 0.579449
20.6846, 2, 2, 0.57691
20.7103, 2, 2, 0.575147
20.736, 1, 1.73205, 0.572302
20.7616, 1, 1.73205, 0.567742
20.7873, 0, 1.41421, 0.560536
20.813, 2, 2, 0.551374
20.8387, 3, 2.23607, 0.540936
20.8643, 0, 1.41421, 0.528143
20.89, 2, 2, 0.512972
20.9157, 1, 1.73205, 0.494183
20.9413, 0, 1.41421, 0.473892
20.967, 1, 1.73205, 0.452374
20.9927, 1, 1.73205, 0.429706
21.0184, 1, 1.73205, 0.407761
21.044, 0, 1.41421, 0.385171
21.0697, 2, 2, 0.361458
21.0954, 0, 1.41421, 0.339376
21.121, 3, 2.23607, 0.318176
21.1467, 1, 1.73205, 0.296082
21.1724, 0, 1.41421, 0.276251
21.1981, 1, 1.73205, 0.256276
21.2237, 0, 1.41421, 0.235095
21.2494, 0, 1.41421, 0.216154
21.2751, 0, 1.41421, 0.198028
21.3007, 2, 2, 0.179274
21.3264, 1, 1.73205, 0.162771
21.3521, 0, 1.41421, 0.146635
21.3778, 1, 1.73205, 0.129928
21.4034, 1, 1.73205, 0.115282
21.4291, 0, 1.41421, 0.101473
21.4548, 2, 2, 0.0876191
21.4804, 0, 1.41421, 0.0756062
21.5061, 0, 1.41421, 0.0642809
21.5318, 2, 2, 0.0532724
21.5575, 1, 1.73205, 0.043732
21.5831, 0, 1.41421, 0.0350738
21.6088, 1, 1.73205, 0.0271798
21.6345, 0, 1.41421, 0.020455
21.6601, 0, 1.41421, 0.0146466
21.6858, 0, 1.41421, 0.0097274
21.7115, 2, 2, 0.00558829
21.7372, 1, 1.73205, 0.00252485
21.7628, 0, 1.41421, 0.000646413
21.7885, 0, 1.41421, 0
21.8142, 0, 1.41421, 5.8303e-005
21.8398, 0, 1.41421, 0.000480994
21.8655, 1, 1.73205, 0.00134801
21.8912, 2, 2, 0.00266209
21.9169, 1, 1.73205, 0.00432895
21.9425, 0, 1.41421, 0.00650846
21.9682, 0, 1.41421, 0.00898759
21.9939, 1, 1.73205, 0.0115709
22.0195, 2, 2, 0.0146724
22.0452, 1, 1.73205, 0.0181618
22.0709, 2, 2, 0.0216829
22.0966, 1, 1.73205, 0.0258765
22.1222, 1, 1.73205, 0.0300663
22.1479, 2, 2, 0.0338798
22.1736, 0, 1.41421, 0.0383232
22.1992, 0, 1.41421, 0.0429986
22.2249, 1, 1.73205, 0.0475277
22.2506, 0, 1.41421, 0.0526944
22.2763, 1, 1.73205, 0.0575064
22.3019, 1, 1.73205, 0.061756
22.3276, 0, 1.41421, 0.0664055
22.3533, 2, 2, 0.0703761
22.379, 0, 1.41421, 0.0732496
22.4046, 0, 1.41421, 0.0747923
22.4303, 0, 1.41421, 0.0743238
22.456, 0, 1.41421, 0.0727087
22.4816, 0, 1.41421, 0.070769
22.5073, 1, 1.73205, 0.0677403
22.533, 1, 1.73205, 0.0652803
22.5587, 1, 1.73205, 0.0629621
22.5843, 0, 1.41421, 0.0599191
22.61, 1, 1.73205, 0.0572059
22.6357, 1, 1.73205, 0.0546451
22.6613, 0, 1.41421, 0.0513275
22.687, 2, 2, 0.0488552
22.7127, 1, 1.73205, 0.0463549
22.7384, 2, 2, 0.0434005
22.764, 0, 1.41421, 0.0407995
22.7897, 0, 1.41421, 0.0382081
22.8154, 1, 1.73205, 0.0354128
22.841, 1, 1.73205, 0.0330015
22.8667, 1, 1.73205, 0.0306066
22.8924, 0, 1.41421, 0.0282368
22.9181, 0, 1.41421, 0.0255027
22.9437, 1, 1.73205, 0.0223909
22.9694, 1, 1.73205, 0.0191899
22.9951, 2, 2, 0.0157959
23.0207, 0, 1.41421, 0.0123876
23.0464, 0, 1.41421, 0.00935776
23.0721, 0, 1.41421, 0.00681243
23.0978, 0, 1.41421, 0.00445952
23.1234, 1, 1.73205, 0.00276483
23.1491, 1, 1.73205, 0.0014884
23.1748, 0, 1.41421, 0.000495503
23.2004, 1, 1.73205, 6.81964e-005
23.2261, 0, 1.41421, 3.46463e-006
23.2518, 0, 1.41421, 1.57151e-006
23.2775, 2, 2, 7.54301e-006
23.3031, 0, 1.41421, 1.24903e-005
23.3288, 1, 1.73205, 3.53589e-006
23.3545, 0, 1.41421, 4.23852e-006
23.3801, 1, 1.73205, 4.35929e-006
23.4058, 0, 1.41421, 3.92877e-007
23.4315, 1, 1.73205, 4.46252e-007
23.4572, 0, 1.41421, 6.04875e-007
23.4828, 0, 1.41421, 2.17205e-008
23.5085, 0, 1.41421, 3.36481e-007
23.5342, 0, 1.41421, 9.08257e-007
23.5598, 1, 1.73205, 1.95485e-007
23.5855, 0, 1.41421, 6.61784e-007
23.6112, 1, 1.73205, 1.20229e-006
23.6369, 0, 1.41421, 4.03299e-007
23.6625, 0, 1.41421, 7.74905e-007
23.6882, 1, 1.73205, 1.13094e-006
23.7139, 0, 1.41421, 5.27284e-007
23.7395, 0, 1.41421, 8.24512e-007
23.7652, 0, 1.41421, 1.00938e-006
23.7909, 0, 1.41421, 5.39992e-007
23.8166, 0, 1.41421, 6.4328e-007
23.8422, 0, 1.41421, 6.52084e-007
23.8679, 0, 1.41421, 4.37122e-007
23.8936, 0, 1.41421, 4.43526e-007
23.9193, 1, 1.73205, 3.42562e-007
23.9449, 0, 1.41421, 2.57302e-007
23.9706, 1, 1.73205, 1.84222e-007
23.9963, 0, 1.41421, 1.1992e-007
24.0219, 1, 1.73205, 6.37085e-008
24.0476, 0, 1.41421, 2.42649e-008
24.0733, 0, 1.41421, 2.74113e-009
24.099, 0, 1.41421, 0
24.1246, 0, 1.41421, 0
24.1503, 0, 1.41421, 0
24.176, 0, 1.41421, 0
24.2016, 0, 1.41421, 0
24.2273, 0, 1.41421, 0
24.253, 0, 1.41421, 0
24.2787, 1, 1.73205, 0
24.3043, 1, 1.73205, 0
24.33, 0, 1.41421, 0
24.3557, 0, 1.41421, 0
24.3813, 0, 1.41421, 2.8344e-024
24.407, 0, 1.41421, 0
24.4327, 0, 1.41421, 5.20603e-025
24.4584, 0, 1.41421, 1.44612e-024
24.484, 0, 1.41421, 0
24.5097, 0, 1.41421, 9.03825e-026
24.5354, 0, 1.41421, 0
24.561, 1, 1.73205, 0
24.5867, 0, 1.41421, 0
24.6124, 1, 1.73205, 0
24.6381, 0, 1.41421, 0
24.6637, 0, 1.41421, 0
24.6894, 0, 1.41421, 0
24.7151, 0, 1.41421, 0
24.7407, 0, 1.41421, 0
24.7664, 0, 1.41421, 0
24.7921, 0, 1.41421, 0
24.8178, 0, 1.41421, 0
24.8434, 0, 1.41421, 0
24.8691, 0, 1.41421, 0
24.8948, 0, 1.41421, 0
24.9204, 0, 1.41421, 0
24.9461, 1, 1.73205, 0
24.9718, 0, 1.41421, 0
24.9975, 0, 1.41421, 0
25.0231, 0, 1.41421, 0
25.0488, 0, 1.41421, 0
25.0745, 0, 1.41421, 0
25.1001, 1, 1.73205, 0
25.1258, 0, 1.41421, 0
25.1515, 0, 1.41421, 0
25.1772, 0, 1.41421, 0
25.2028, 0, 1.41421, 0
25.2285, 0, 1.41421, 0
25.2542, 0, 1.41421, 0
25.2798, 0, 1.41421, 0
25.3055, 0, 1.41421, 0
25.3312, 0, 1.41421, 0
25.3569, 0, 1.41421, 0
25.3825, 0, 1.41421, 0
25.4082, 0, 1.41421, 0
25.4339, 0, 1.41421, 0
25.4595, 1, 1.73205, 0
25.4852, 0, 1.41421, 0
25.5109, 0, 1.41421, 0
25.5366, 0, 1.41421, 0
25.5622, 0, 1.41421, 0
25.5879, 0, 1.41421, 0
25.6136, 0, 1.41421, 0
25.6392, 0, 1.41421, 0
25.6649, 0, 1.41421, 0
25.6906, 0, 1.41421, 0
25.7163, 0, 1.41421, 0
25.7419, 0, 1.41421, 0
25.7676, 0, 1.41421, 0
25.7933, 0, 1.41421, 0
25.819, 0, 1.41421, 0
25.8446, 1, 1.73205, 0
25.8703, 0, 1.41421, 0
25.896, 0, 1.41421, 0
25.9216, 0, 1.41421, 0
25.9473, 0, 1.41421, 0
25.973, 0, 1.41421, 0
25.9987, 0, 1.41421, 0
26.0243, 0, 1.41421, 0
26.05, 0, 1.41421, 0
26.0757, 0, 1.41421, 0
26.1013, 0, 1.41421, 0
26.127, 0, 1.41421, 0
26.1527, 0, 1.41421, 0
26.1784, 0, 1.41421, 0
26.204, 0, 1.41421, 0
26.2297, 0, 1.41421, 0
26.2425, 0, 1.41421, 0